thisRow.t,notes,response,correct,correct_response,response_time,bonus,difficulty,category,phase,t_delay,stimulus_ID,stim presentation time,delay presentation time,AB presentation time,feedback presentation time,ITI presentation time,ITI response time,participant,session,date,
,,right,1,['right'],0.7935421239999414,0.0,1,1,train,1.1018476101781345,,,,,,,,,,2023-12-15_10h20.10.618,
,,right,1,['right'],0.6970210000017687,0.0,1,1,train,1.239936822601222,,,,,,,,,,2023-12-15_10h20.10.618,
,,left,1,['left'],1.5180600830008188,0.0,2,1,train,1.0699449724172339,,,,,,,,,,2023-12-15_10h20.10.618,
,,right,1,['right'],0.6785478749989124,0.0,2,1,train,1.1610566251008532,,,,,,,,,,2023-12-15_10h20.10.618,
,,left,1,['left'],0.9342149160002009,0.0,2,2,train,0.9320443809337323,,,,,,,,,,2023-12-15_10h20.10.618,
,,left,1,['left'],0.7355270410007506,0.0,1,2,train,1.1657685845943555,,,,,,,,,,2023-12-15_10h20.10.618,
,,left,1,['left'],0.6226105409987213,0.0,1,2,train,1.0346121551633063,,,,,,,,,,2023-12-15_10h20.10.618,
,,right,1,['right'],0.7063177909985825,0.0,2,2,train,0.87632930570512,,,,,,,,,,2023-12-15_10h20.10.618,
,,left,1,['left'],0.887999790998947,0.0,1,2,train,1.2278300905477895,,,,,,,,,,2023-12-15_10h20.10.618,
,,left,1,['left'],0.8074488319998636,0.0,1,1,train,0.9352510265706746,,,,,,,,,,2023-12-15_10h20.10.618,
,,right,1,['right'],0.645665750000262,0.05,1,2,test,,12,0.008719875000679167,1.0139811250010098,1.869306915999914,2.8001421660010237,4.307590124999479,4.56269975000032,,,2023-12-15_10h20.10.618,
,,left,1,['left'],0.6535968739990494,0.05,1,1,test,,3,6.69257670800107,7.6969789159993525,8.55241712499992,9.445272625000143,10.953199375000622,3.8886640410000837,,,2023-12-15_10h20.10.618,
,,left,1,['left'],0.9670725830001174,0.05,1,2,test,,21,12.701024040999982,13.705726665999464,14.561209833000248,15.608247374999337,17.115291915999478,5.151905665999948,,,2023-12-15_10h20.10.618,
,,left,1,['left'],1.161475998998867,0.05,1,1,test,,15,19.90565137500016,20.91170483300084,21.76676462499927,23.150565207999534,24.658145749999676,4.85651999899892,,,2023-12-15_10h20.10.618,
,,right,1,['right'],1.345039457999519,0.05,1,2,test,,3,26.848272082999756,27.852533040999333,28.70836324999982,30.358515375000934,31.865484333000495,4.956900957999096,,,2023-12-15_10h20.10.618,
,,right,1,['right'],1.323131248998834,0.05,2,1,test,,11,33.93900550000035,34.94327916600014,35.79835308300062,37.38184962500054,38.888898499999414,4.976994915999967,,,2023-12-15_10h20.10.618,
,,right,1,['right'],0.7886443329989561,0.05,2,2,test,,11,41.02372237500094,42.02826616600032,42.88376945799973,43.962745124999856,45.47036141600074,4.393717332999586,,,2023-12-15_10h20.10.618,
,,left,1,['left'],0.9889682070006529,0.05,2,2,test,,6,47.501519125000414,48.50599762499951,49.36352233300022,50.62501275000068,52.132288250000784,4.574160791000395,,,2023-12-15_10h20.10.618,
,,right,1,['right'],1.6541679160000058,0.05,2,1,test,,14,54.13032312500036,55.13407287500013,55.989500790999955,57.924381250000806,59.431149500000174,6.51127087399982,,,2023-12-15_10h20.10.618,
,,left,1,['left'],0.8122767080003541,0.05,2,2,test,,16,62.706429541000034,63.717097791000924,64.57236779100094,65.69332075000057,67.19906287500089,4.478489749000801,,,2023-12-15_10h20.10.618,
,,right,1,['right'],1.2123465000004217,0.05,3,1,test,,2,69.24240712500068,70.24720570799946,71.10242870799993,72.56408837500021,74.0710357909993,4.664386041000398,,,2023-12-15_10h20.10.618,
,,left,0,['right'],1.4135547080004471,0,3,2,test,,16,75.97757962499963,76.98278924999977,77.83841741600008,79.54401837499972,84.55477025000073,8.29962633300056,,,2023-12-15_10h20.10.618,
,,right,1,['right'],0.9060670830003801,0.05,3,2,test,,11,86.34827733299971,87.35317554100038,88.20803754100052,89.4042274580006,90.91078670800016,4.640114583000468,,,2023-12-15_10h20.10.618,
,,left,0,['right'],3.1688411659997655,0,3,1,test,,4,93.07751124999959,94.08229766600016,94.93760937499974,98.37473316599971,103.38590154099984,9.126709165999273,,,2023-12-15_10h20.10.618,
,,left,1,['left'],1.0800696240003163,0.05,3,1,test,,2,104.26633562499956,105.27094441600093,106.12605687500036,107.45468266600074,108.96574066600078,4.480139624000003,,,2023-12-15_10h20.10.618,
,,right,1,['right'],0.858031749001384,0.05,2,2,test,,9,110.61405449999984,111.61829320800098,112.47328245800054,113.57317854100074,115.08227533299942,4.763156791001165,,,2023-12-15_10h20.10.618,
,,right,1,['right'],0.7860528740002337,0.05,2,2,test,,5,117.43259041599958,118.43716854100057,119.2924430410003,120.32534775000022,121.83299812500081,6.089062708000711,,,2023-12-15_10h20.10.618,
,,left,1,['left'],0.9026380830000562,0.05,2,1,test,,7,125.59519962500053,126.60050475000025,127.45580054099992,128.61845991600057,130.1254504160006,4.659693624000283,,,2023-12-15_10h20.10.618,
,,right,1,['right'],0.7210357909989398,0.05,2,2,test,,10,132.31487912500052,133.31882874999974,134.17443891599942,135.14279395800077,136.6507228749997,4.969088415999067,,,2023-12-15_10h20.10.618,
,,left,1,['left'],0.9767779990015697,0.05,2,1,test,,9,139.33304624999982,140.33677012500084,141.19196525000007,142.38408449999952,143.89065162500083,4.6658185820015206,,,2023-12-15_10h20.10.618,
,,right,1,['right'],0.6907580820006842,0.05,3,2,test,,10,146.05025520799973,147.0547524579997,147.9099838330003,148.85450825000044,150.3607764160006,4.1236970409991045,,,2023-12-15_10h20.10.618,
,,right,0,['left'],1.5795262909996381,0,3,1,test,,15,152.2519014160007,153.2559739999997,154.1113647910006,155.93980570799977,160.95088391600075,8.459421333000137,,,2023-12-15_10h20.10.618,
,,left,1,['left'],1.1805043750009645,0.05,3,1,test,,10,162.77456712499952,163.78002991600079,164.63532733300053,165.82482758300102,167.33162987499963,4.7235402910009725,,,2023-12-15_10h20.10.618,
,,right,0,['left'],0.8320793319999211,0,3,2,test,,10,169.56239154099967,170.56774849999965,171.42285520800033,172.52694416600025,177.53706116600006,7.743160832000285,,,2023-12-15_10h20.10.618,
,,right,1,['right'],1.7464872910004487,0.05,3,2,test,,2,179.40228516599927,180.40663137500087,181.2617124999997,183.26974237499962,184.77628841600017,5.602376623999589,,,2023-12-15_10h20.10.618,
,,right,1,['right'],1.391785832000096,0.05,2,1,test,,6,187.12016483300067,188.12490683299984,188.98253666600067,190.38254037499973,191.88982304099954,4.322623124000529,,,2023-12-15_10h20.10.618,
,,left,1,['left'],0.7479022490006173,0.05,2,1,test,,5,193.5338332909996,194.53848437499983,195.393489125001,196.40672124999946,197.91684087500107,4.019911123999918,,,2023-12-15_10h20.10.618,
,,right,1,['right'],0.7211173329997109,0.05,2,1,test,,1,199.61115650000102,200.61611883300066,201.47129754100024,202.1996257080009,203.7064489580007,3.6881825830005255,,,2023-12-15_10h20.10.618,
,,right,1,['right'],1.7092163739998796,0.05,2,1,test,,17,205.38950170799944,206.39377620800042,207.24929229100053,209.20707374999984,210.71664987499935,4.799166249000336,,,2023-12-15_10h20.10.618,
,,right,1,['right'],0.9790525410007831,0.05,2,1,test,,5,212.27697920799983,213.28161408300002,214.13752791600018,215.34773945800043,216.85549895800068,3.927032624000276,,,2023-12-15_10h20.10.618,
,,left,1,['left'],0.8532902069982811,0.05,3,2,test,,5,218.07180287499978,219.07600733300023,219.93124916600027,221.0387092910005,222.54596404100084,3.953291331999935,,,2023-12-15_10h20.10.618,
,,left,1,['left'],1.507717373999185,0.05,3,1,test,,6,224.08231016600075,225.08641145799993,225.94189812500008,227.66770229100075,229.17500012500022,4.509867373999441,,,2023-12-15_10h20.10.618,
,,left,1,['left'],1.8306648330017197,0.05,3,2,test,,15,230.66297479100103,231.66766529100096,232.52312504099973,234.61623116600094,236.12326358300015,4.624549666001258,,,2023-12-15_10h20.10.618,
,,left,1,['left'],0.7218126659990958,0.05,3,2,test,,8,237.36959562499942,238.3740512910008,239.22995420799998,240.1875716249997,241.69515750000028,5.123865833000309,,,2023-12-15_10h20.10.618,
,,right,1,['right'],0.7241093749998981,0.05,3,1,test,,2,244.5683400830003,245.57228849999956,246.42790054100078,247.15814166600103,248.66531362500064,3.409128833000068,,,2023-12-15_10h20.10.618,
,,left,1,['left'],0.7769590829993831,0.05,4,1,test,,5,250.0790839580004,251.08333054099967,251.9393361250004,252.97554812499948,254.4833470829999,3.888867998999558,,,2023-12-15_10h20.10.618,
,,right,1,['right'],1.0467402489994129,0.05,4,1,test,,4,256.0453854999996,257.0495178330002,257.90519012500044,259.2007706660006,260.70811612500074,4.019004998999662,,,2023-12-15_10h20.10.618,
,,right,1,['right'],0.898831833001168,0.05,4,1,test,,2,262.1541487499999,263.1583233750007,264.0143485000008,265.14902108299975,266.6557560830006,3.748695708000014,,,2023-12-15_10h20.10.618,
,,left,1,['left'],0.9723879989996931,0.05,4,1,test,,2,267.9922755410007,268.99852341599944,269.85385620799934,271.0550374159993,272.56241150000096,4.115271582999412,,,2023-12-15_10h20.10.618,
,,right,1,['right'],1.8810430409994296,0.05,4,2,test,,11,274.15492504100075,275.1593191659995,276.0152977500002,278.1678337909998,279.6758851249997,4.85410495799988,,,2023-12-15_10h20.10.618,
,,right,1,['right'],0.887634208000236,0.05,5,2,test,,6,281.08644724999976,282.09065058300075,282.94586541600074,284.07611141599955,285.58701508299964,3.84273525000026,,,2023-12-15_10h20.10.618,
,,left,0,['right'],1.3839547489988036,0,5,2,test,,3,287.0173407910006,288.0222973330001,288.87752404099956,290.52791633299967,295.5381067500002,8.00502537399916,,,2023-12-15_10h20.10.618,
,,right,0,['left'],0.85686958199949,0,5,1,test,,10,297.0934089580005,298.0985743750007,298.9537314579993,300.0581914579998,305.0684543330008,7.514943915999538,,,2023-12-15_10h20.10.618,
,,left,1,['left'],0.8503050829986023,0.05,5,1,test,,4,306.69168795800033,307.6963365829997,308.55129712500093,309.6445443749999,311.1510582080009,3.7302932499987946,,,2023-12-15_10h20.10.618,
,,left,1,['left'],0.7589853740009858,0.05,5,2,test,,11,312.55303066600027,313.55720245799967,314.41279345800103,315.42467812500036,316.93165845800104,3.6078888320007536,,,2023-12-15_10h20.10.618,
,,right,1,['right'],0.7952990000012505,0.05,4,2,test,,8,318.26214516599975,319.2670134159998,320.1224290000009,321.17690033300096,322.68312833299933,3.7004533750005066,,,2023-12-15_10h20.10.618,
,,left,0,['right'],1.3478118740003993,0,4,1,test,,5,324.05806120799934,325.06267812499937,325.9180023330009,327.51746345799984,332.52691700000105,8.373877666001135,,,2023-12-15_10h20.10.618,
,,left,1,['left'],0.8505184999994526,0.05,4,2,test,,8,334.4967898750001,335.5014527910007,336.3565741250004,337.4784090409994,338.985277916001,3.9145485410008405,,,2023-12-15_10h20.10.618,
,,left,1,['left'],0.7534510410005169,0.05,4,2,test,,5,340.4864859160007,341.49077274999945,342.3466687500004,343.3718886660008,344.87899741600086,3.767307874000835,,,2023-12-15_10h20.10.618,
,,right,1,['right'],1.6838586239991855,0.05,4,1,test,,1,346.35108412500085,347.35581233300036,348.2103984580008,350.12468824999996,351.63143908299935,4.797841707000771,,,2023-12-15_10h20.10.618,
,,left,1,['left'],0.7727307500008465,0.05,5,1,test,,7,353.22425574999943,354.22828395800025,355.0835094159993,356.13465079100024,357.6419939160005,3.8606528750005964,,,2023-12-15_10h20.10.618,
,,right,0,['left'],0.7408997910006292,0,5,2,test,,18,359.1670735410007,360.1714307080001,361.0263593330001,362.0260398749997,367.04126062499927,7.381907874001627,,,2023-12-15_10h20.10.618,
,,left,0,['right'],0.8136296660013613,0,5,1,test,,16,368.65681579100055,369.66196933299943,370.5168429999994,371.5900152079994,376.6025492909994,7.440500874999998,,,2023-12-15_10h20.10.618,
,,right,0,['left'],2.137027873999614,0,5,1,test,,15,378.1868514159996,379.19194729099945,380.04761129100007,382.1931450409993,387.20359545800056,8.373960208000426,,,2023-12-15_10h20.10.618,
,,left,0,['right'],2.0140451659990504,0,5,1,test,,1,388.6443857909999,389.651961208001,390.50651862499944,392.8066277079997,397.8187779580003,8.519108332999167,,,2023-12-15_10h20.10.618,
,,right,1,['right'],1.329257374000008,0.05,4,2,test,,10,399.24153812499935,400.24606462500014,401.1016352080005,402.6734907499995,404.18021662499996,3.6011294569998427,,,2023-12-15_10h20.10.618,
,,left,1,['left'],0.9635253329997795,0.05,4,1,test,,16,404.91804500000035,405.92243400000007,406.7772751659995,408.0202087910002,409.5270849160006,4.143546625000454,,,2023-12-15_10h20.10.618,
,,right,1,['right'],2.1138177909997466,0.05,4,1,test,,9,411.1187549999995,412.1237202499997,412.9792333330006,415.361218,416.8687826250007,5.025821958000961,,,2023-12-15_10h20.10.618,
,,left,1,['left'],0.905574083000829,0.05,4,2,test,,8,418.2220875410003,419.2269777500005,420.0826965409997,421.24838183300017,422.7549372079993,4.029725499000051,,,2023-12-15_10h20.10.618,
,,left,0,['right'],1.8875879569986864,0,4,1,test,,2,424.3415118749999,425.34569445799934,426.20058258300014,428.3744659160002,433.3872242079997,8.325590331998683,,,2023-12-15_10h20.10.618,
,,right,1,['right'],2.0900645830006397,0.05,5,2,test,,13,434.74909062500046,435.7530621250007,436.60817408299954,438.96993683300025,440.4770150830009,5.069156083000053,,,2023-12-15_10h20.10.618,
,,right,1,['right'],1.9936322489993472,0.05,5,1,test,,15,441.89394754100067,442.89779462499973,443.75292754099974,445.9897451659999,447.4963959159995,5.13776816599966,,,2023-12-15_10h20.10.618,
,,right,0,['left'],1.8846022069992614,0,5,2,test,,18,449.0858468330007,450.0897804159995,450.9457613750001,453.1052816249994,458.1152895409996,8.390735831999336,,,2023-12-15_10h20.10.618,
,,left,1,['left'],1.6921437909986707,0.05,5,1,test,,3,459.55882333299996,460.5634839159993,461.4184059580002,463.3647417909997,464.8722942080003,4.639053999999305,,,2023-12-15_10h20.10.618,
,,left,0,['right'],2.6476203330003045,0,5,2,test,,12,466.27994862500054,467.2845643750006,468.14041104100033,471.03746587500063,476.0480498329998,9.158539791000294,,,2023-12-15_10h20.10.618,
,,right,1,['right'],1.027986624998448,0.05,4,2,test,,6,477.5215680000001,478.5264819160002,479.38181774999975,480.6524298330005,482.15931708300013,4.141921624999668,,,2023-12-15_10h20.10.618,
,,right,1,['right'],1.58125974900031,0.05,4,1,test,,8,483.73481645799984,484.7384662080003,485.59364529100094,487.4384561250008,488.9457843330001,4.934298999000021,,,2023-12-15_10h20.10.618,
,,right,1,['right'],1.7831877490007173,0.05,4,1,test,,15,490.75213504100066,491.755705208001,492.6108000410004,494.6192574159995,496.1257974580003,4.602223707999656,,,2023-12-15_10h20.10.618,
,,left,0,['right'],2.5559744160000264,0,4,2,test,,2,497.4298593750009,498.43443804100025,499.2901380830008,502.11328308299926,507.12440033299936,11.250047124000048,,,2023-12-15_10h20.10.618,
,,right,1,['right'],0.8095167490009771,0.05,4,2,test,,3,510.7360826660006,511.7413520829996,512.5967031660002,513.6477373750004,515.1539692080005,3.8315651660013827,,,2023-12-15_10h20.10.618,
,,left,0,['right'],2.4264839160005067,0,5,1,test,,9,516.6328338750009,517.637946625,518.4926950829995,521.1876551250007,526.1975015829994,8.784564124000099,,,2023-12-15_10h20.10.618,
,,left,0,['right'],1.7599093739991076,0,5,2,test,,9,527.4991487080006,528.503660458,529.3585336659999,531.3980714160007,536.4076707500008,8.233023498998591,,,2023-12-15_10h20.10.618,
,,right,0,['left'],1.4823414160000539,0,5,2,test,,8,537.8032689579995,538.807336291,539.662238500001,541.4129645829998,546.4232876250007,8.300327708000623,,,2023-12-15_10h20.10.618,
,,right,1,['right'],2.808586082999682,0.05,5,1,test,,9,548.1729247910007,549.1771807080004,550.0321399999993,553.0968298330008,554.6040454579997,5.971430665998923,,,2023-12-15_10h20.10.618,
,,left,1,['left'],3.268073290999382,0.05,5,1,test,,7,556.2258860410002,557.229950541001,558.0856634579995,561.5995832909994,563.1067969159994,6.240080707999368,,,2023-12-15_10h20.10.618,
,,right,1,['right'],1.8383919160005462,0.05,4,2,test,,12,564.536699833001,565.5405233330002,566.3955613750004,568.4712714159996,569.9796435000007,4.670379373999822,,,2023-12-15_10h20.10.618,
,,left,1,['left'],1.7277360820007743,0.05,4,1,test,,1,571.2888020000009,572.2932317079994,573.1491111249998,575.1128122080008,576.6209815000002,4.612833581999439,,,2023-12-15_10h20.10.618,
,,left,0,['right'],2.8521867910003493,0,4,1,test,,15,578.0031556249996,579.006992916,579.8617885410004,583.0001020830005,588.0108352910011,9.38135687400063,,,2023-12-15_10h20.10.618,
,,left,1,['left'],1.4524344580004254,0.05,4,1,test,,16,589.4473721249997,590.4574560830006,591.3126061250005,593.0012197079996,594.5076977909994,4.436606125000253,,,2023-12-15_10h20.10.618,
,,right,1,['right'],0.9680909579983563,0.05,4,2,test,,4,595.9582552909997,596.9629768750001,597.8180279160006,599.0468930829993,600.553528583001,3.363120790998437,,,2023-12-15_10h20.10.618,
,,left,0,['right'],1.8833740819991363,0,5,2,test,,3,601.4091726250008,602.4150467500003,603.2698230410006,605.4316715000004,610.4402732500002,8.65160083199953,,,2023-12-15_10h20.10.618,
,,right,0,['left'],1.431610374000229,0,5,2,test,,11,612.1178127500007,613.1209931249996,613.9747482500006,615.6728675409995,620.6780604159994,7.956628456999169,,,2023-12-15_10h20.10.618,
,,right,1,['right'],1.4058909989998938,0.05,5,2,test,,13,622.1468906249993,623.1503122909999,624.0045367500006,625.6465242909999,627.1520567909993,4.390944206999848,,,2023-12-15_10h20.10.618,
,,left,0,['right'],1.2770482910000283,0,5,2,test,,5,628.6244767499993,629.6276174579998,630.4815041250004,632.0057886249997,637.0131584160008,7.776098082000317,,,2023-12-15_10h20.10.618,
,,right,1,['right'],1.4614377910002077,0.05,5,1,test,,4,638.4729703329995,639.4762155410008,640.3303558749994,642.0152534999997,643.5210217080003,4.489358125001672,,,2023-12-15_10h20.10.618,
,,left,1,['left'],0.8730594999997265,0.05,4,2,test,,8,645.0350043750004,646.038477125001,646.8929975829997,648.0056802500003,649.5114400830007,3.9360982500002137,,,2023-12-15_10h20.10.618,
,,,0,['right'],None,0,4,1,test,,19,651.0320873330002,652.0351762909995,652.8893988330001,656.9091236660006,661.9142723330006,109.77635183299935,,,2023-12-15_10h20.10.618,
